Folder: chem-xrd/experimental_xrd

Note: README.md
![PyTorch](https://img.shields.io/badge/PyTorch-%23EE4C2C.svg?style=for-the-badge&logo=PyTorch&logoColor=white)

# Chem-XRD

**Title: Multimodal transformers with chemical priors improve the accuracy of phase classification from X-ray diffraction spectra**

![alt text](https://github.com/PV-Lab/chem-xrd/blob/main/figure/Schematic.png?raw=true)

## Table of Contents

- [1. System requirements](#1.-system-requirements)
- [2. Installation](#2.-installation)
- [3. Usage](#3.-usage)

## 1. System requirements

### 1.1 Software dependencies
- Python	3.8.18 / 3.11.8
- Pytorch 1.13.1
- numpy	1.24.3
- xrayutilities	1.7.4 / 1.7.8
- pymatgen	2023.8.10
- transformers 4.44.2
- scikit-learn 1.3.2
- scipy 1.10.1

### 1.2 Tested enviornment
- Windows 11, version 23H2
- NVIDIA GeForce GTX 3080/4090

## 2. Installation (10-15 min)

### 2.1 Install Anaconda
https://docs.anaconda.com/anaconda/install/

### 2.2 Create and activate new enviornment in anaconda prompt
```bash
conda create -n chem_xrd python=3.8.18
```
```bash
conda activate chem_xrd
```
### 2.3 Install dependencies through pip
```bash
pip install numpy==1.24.3
pip install xrayutilities==1.7.4
pip install pymatgen==2023.8.10
pip install transformers==4.44.2
pip install scikit-learn==1.3.2
```

### 2.4 Setting up Pytorch
Option 1: to install the CPU version on Linux and Windows
```bash
pip install torch==1.13.1+cpu torchvision==0.14.1+cpu torchaudio==0.13.1 --extra-index-url https://download.pytorch.org/whl/cpu
```
Option 2: to install the GPU version (with CUDA==11.x and cuDNN>=8.5.0)
```bash
pip install torch==1.13.1+cu117 torchvision==0.14.1+cu117 torchaudio==0.13.1 --extra-index-url https://download.pytorch.org/whl/cu117
```
See also: https://pytorch.org/get-started/previous-versions/

## 3. Usage

Before use, download the XRD dataset and pretrained models at https://drive.google.com/file/d/1vBlm35L_PZZ6wtZlvAe_E2jjcrLlXTob, and place the contents in the "cif" and "pretrained_model" directories, respectively.

### 3.1 Dataset preprocessing (30-60 min, skippable)
Run [Preprocess.ipynb](Preprocess.ipynb).
The notebook shows the generation of new alloyed CIF files, the application of lattice strains, and the process of dataset generation.
For the CIF selection process, refer to [ICSD_down_selection.xlsx](ICSD_down_selection.xlsx) for further information.

### 3.2 Model training (2 days, skippable)
Run [Train.ipynb](Train.ipynb).
The notebook shows model training for both single-phase and multi-phase scenarios. In single-phase classification, the model predicts only the material ID. In multi-phase classification, the model predicts both the material ID(s) and the number of phases present.

### 3.3 Model testing (15 min)
Run [Evaluation.ipynb](Evaluation.ipynb).
The notebook shows single-phase and multi-phase classifications with Chem-XRD models on simulated and experimental datasets, reproducing figures in the main text.

### 3.4 Visualization and interpretation (5 min)
Run [Interpretation.ipynb](Interpre

File: CsPbBr3.xy
5	22	26.5
5.14	28	25.94
5.28	38	25.51
5.42	26	25.13
5.56	20	24.77
5.7	31	24.39
5.84	26	23.97
5.98	21	23.53
6.12	20	23.05
6.26	36	22.55
6.4	23	22.03
6.54	29	21.5
6.68	16	20.97
6.82	29	20.44
6.96	28	19.92
7.1	32	19.41
7.24	24	18.93
7.38	18	18.46
7.52	18	18.02
7.66	16	17.6
7.8	13	17.21
7.94	13	16.84
8.08	12	16.5
8.22	21	16.19
8.36	17	15.9
8.5	17	15.63
8.64	24	15.38
8.78	16	15.15
8.92	14	14.94
9.06	21	14.74
9.2	14	14.56
9.34	15	14.39
9.48	22	14.23
9.62	15	14.09
9.76	18	13.95
9.9	15	13.82
10.04	9	13.69
10.18	19	13.57
10.32	11	13.45
10.46	14	13.34
10.6	16	13.23
10.74	11	13.11
10.88	6	13
11.02	17	12.89
11.16	14	12.78
11.3	11	12.67
11.44	18	12.55
11.58	27	12.44
11.72	23	12.32
11.86	15	12.2
12	15	12.08
12.14	21	11.96
12.28	10	11.83
12.42	14	11.71
12.56	10	11.58
12.7	11	11.45
12.84	11	11.32
12.98	11	11.19
13.12	16	11.05
13.26	12	10.92
13.4	9	10.78
13.54	7	10.65
13.68	12	10.51
13.82	9	10.38
13.96	8	10.24
14.1	12	10.11
14.24	8	9.97
14.38	14	9.84
14.52	11	9.71
14.66	22	9.57
14.8	37	9.45
14.94	73	9.32
15.08	112	9.19
15.22	113	9.07
15.36	26	8.95
15.5	12	8.83
15.64	10	8.71
15.78	10	8.6
15.92	11	8.49
16.06	8	8.39
16.2	10	8.28
16.34	10	8.18
16.48	14	8.08
16.62	8	7.99
16.76	12	7.9
16.9	13	7.82
17.04	10	7.73
17.18	4	7.65
17.32	6	7.58
17.46	14	7.51
17.6	8	7.44
17.74	7	7.38
17.88	10	7.32
18.02	9	7.26
18.16	7	7.21
18.3	9	7.16
18.44	4	7.12
18.58	6	7.07
18.72	10	7.04
18.86	11	7
19	9	6.97
19.14	8	6.94
19.28	10	6.92
19.42	9	6.9
19.56	9	6.88
19.7	15	6.87
19.84	10	6.86
19.98	7	6.85
20.12	9	6.84
20.26	12	6.84
20.4	7	6.84
20.54	14	6.84
20.68	11	6.85
20.82	8	6.86
20.96	19	6.86
21.1	29	6.88
21.24	66	6.89
21.38	193	6.91
21.52	352	6.92
21.66	119	6.94
21.8	18	6.96
21.94	7	6.98
22.08	15	7.01
22.22	8	7.03
22.36	7	7.06
22.5	12	7.09
22.64	12	7.11
22.78	17	7.14
22.92	6	7.17
23.06	12	7.2
23.2	11	7.23
23.34	16	7.27
23.48	8	7.3
23.62	7	7.33
23.76	13	7.36
23.9	11	7.4
24.04	22	7.43
24.18	34	7.46
24.32	12	7.49
24.46	6	7.53
24.6	11	7.56
24.74	11	7.59
24.88	8	7.62
25.02	10	7.65
25.16	19	7.68
25.3	38	7.72
25.44	8	7.74
25.58	10	7.77
25.72	15	7.8
25.86	12	7.83
26	10	7.86
26.14	15	7.88
26.28	17	7.91
26.42	42	7.93
26.56	21	7.95
26.7	15	7.97
26.84	7	7.99
26.98	8	8.01
27.12	5	8.03
27.26	6	8.05
27.4	16	8.07
27.54	23	8.08
27.68	18	8.09
27.82	14	8.11
27.96	10	8.12
28.1	10	8.13
28.24	12	8.14
28.38	15	8.14
28.52	53	8.15
28.66	33	8.16
28.8	10	8.16
28.94	7	8.16
29.08	14	8.16
29.22	12	8.16
29.36	28	8.16
29.5	19	8.16
29.64	18	8.16
29.78	20	8.15
29.92	8	8.15
30.06	12	8.14
30.2	29	8.13
30.34	73	8.12
30.48	72	8.11
30.62	210	8.1
30.76	170	8.09
30.9	39	8.07
31.04	9	8.06
31.18	13	8.04
31.32	25	8.02
31.46	18	8.01
31.6	24	7.99
31.74	12	7.97
31.88	21	7.95
32.02	22	7.93
32.16	13	7.91
32.3	2	7.88
32.44	10	7.86
32.58	11	7.84
32.72	9	7.81
32.86	7	7.79
33	9	7.76
33.14	15	7.73
33.28	16	7.71
33.42	21	7.68
33.56	15	7.65
33.7	16	7.63
33.84	9	7.6
33.98	18	7.57
34.12	45	7.54
34.26	41	7.51
34.4	64	7.48
34.54	32	7.45
34.68	19	7.42
34.82	11	7.39
34.96	10	7.36
35.1	9	7.33
35.24	16	7.3
35.38	21	7.28
35.52	12	7.25
35.66	10	7.22
35.8	8	7.19
35.94	10	7.16
36.08	13	7.13
36.22	5	7.1
36.36	7	7.08
36.5	8	7.05
36.64	11	7.02
36.78	9	6.99
36.92	11	6.97
37.06	11	6.94
37.2	6	6.92
37.34	12	6.89
37.48	48	6.87
37.62	121	6.85
37.76	135	6.82
37.9	76	6.8
38.04	20	6.78
38.18	22	6.76
38.32	6	6.74
38.46	6	6.72
38.6	15	6.7
38.74	13	6.69
38.88	14	6.67
39.02	8	6.65
39.16	13	6.64
39.3	12	6.62
39.44	13	6.61
39.58	10	6.6
39.72	6	6.59
39.86	8	6.58
40	8	6.57
40.14	8	6.56
40.28	8	6.55
40.42	7	6.55
40.56	4	6.54
40.7	8	6.53
40.84	6	6.53
40.98	7	6.53
41.12	8	6.53
41.26	7	6.53
41.4	8	6.53
41.54	13	6.53
41.68	6	6.53
41.82	7	6.53
41.96	4	6.53
42.1	12	6.54
42.24	10	6.54
42.38	8	6.55
42.52	9	6.56
42.66	8	6.57
42.8	8	6.58
42.94	10	6.59
43.08	10	6.6
43.22	12	6.61
43.36	19	6.62
43.5	21	6.63
43.64	89	6.65
43.78	108	6.66
43.92	57	6.67
44.06	42	6.69
44.2	51	6.71
44.34	18	6.72
44.48	6	6.74
44.62	8	6.76
44.76	9	6.77
44.9	19	6.79
45	9	6.8